H–O–H Angle (°),Energy (Eh)
101.00,-76.42592537
101.01,-76.42592747
101.02,-76.42592956
101.03,-76.42593165
101.04,-76.42593373
101.05,-76.42593581
101.06,-76.42593788
101.07,-76.42593994
101.08,-76.42594201
101.09,-76.42594407
101.10,-76.42594611
101.11,-76.42594816
101.12,-76.42595020
101.13,-76.42595224
101.14,-76.42595426
101.15,-76.42595629
101.16,-76.42595831
101.17,-76.42596033
101.18,-76.42596234
101.19,-76.42596434
101.20,-76.42596635
101.21,-76.42596834
101.22,-76.42597033
101.23,-76.42597231
101.24,-76.42597430
101.25,-76.42597627
101.26,-76.42597824
101.27,-76.42598020
101.28,-76.42598216
101.29,-76.42598412
101.30,-76.42598606
101.31,-76.42598801
101.32,-76.42598994
101.33,-76.42599188
101.34,-76.42599381
101.35,-76.42599573
101.36,-76.42599765
101.37,-76.42599956
101.38,-76.42600148
101.39,-76.42600338
101.40,-76.42600527
101.41,-76.42600717
101.42,-76.42600906
101.43,-76.42601095
101.44,-76.42601282
101.45,-76.42601469
101.46,-76.42601656
101.47,-76.42601842
101.48,-76.42602028
101.49,-76.42602214
101.50,-76.42602398
101.51,-76.42602582
101.52,-76.42602766
101.53,-76.42602950
101.54,-76.42603132
101.55,-76.42603314
101.56,-76.42603496
101.57,-76.42603677
101.58,-76.42603857
101.59,-76.42604037
101.60,-76.42604217
101.61,-76.42604397
101.62,-76.42604575
101.63,-76.42604753
101.64,-76.42604931
101.65,-76.42605109
101.66,-76.42605285
101.67,-76.42605461
101.68,-76.42605636
101.69,-76.42605811
101.70,-76.42605986
101.71,-76.42606161
101.72,-76.42606334
101.73,-76.42606507
101.74,-76.42606680
101.75,-76.42606851
101.76,-76.42607023
101.77,-76.42607194
101.78,-76.42607365
101.79,-76.42607535
101.80,-76.42607705
101.81,-76.42607874
101.82,-76.42608042
101.83,-76.42608210
101.84,-76.42608378
101.85,-76.42608545
101.86,-76.42608711
101.87,-76.42608877
101.88,-76.42609043
101.89,-76.42609208
101.90,-76.42609372
101.91,-76.42609536
101.92,-76.42609700
101.93,-76.42609862
101.94,-76.42610025
101.95,-76.42610187
101.96,-76.42610349
101.97,-76.42610509
101.98,-76.42610670
101.99,-76.42610830
102.00,-76.42610989
102.01,-76.42611149
102.02,-76.42611307
102.03,-76.42611465
102.04,-76.42611623
102.05,-76.42611780
102.06,-76.42611936
102.07,-76.42612091
102.08,-76.42612247
102.09,-76.42612402
102.10,-76.42612557
102.11,-76.42612710
102.12,-76.42612864
102.13,-76.42613017
102.14,-76.42613169
102.15,-76.42613321
102.16,-76.42613472
102.17,-76.42613624
102.18,-76.42613774
102.19,-76.42613924
102.20,-76.42614073
102.21,-76.42614222
102.22,-76.42614370
102.23,-76.42614519
102.24,-76.42614666
102.25,-76.42614813
102.26,-76.42614959
102.27,-76.42615105
102.28,-76.42615251
102.29,-76.42615395
102.30,-76.42615540
102.31,-76.42615684
102.32,-76.42615827
102.33,-76.42615970
102.34,-76.42616112
102.35,-76.42616254
102.36,-76.42616395
102.37,-76.42616536
102.38,-76.42616676
102.39,-76.42616816
102.40,-76.42616956
102.41,-76.42617095
102.42,-76.42617233
102.43,-76.42617371
102.44,-76.42617508
102.45,-76.42617645
102.46,-76.42617782
102.47,-76.42617918
102.48,-76.42618053
102.49,-76.42618188
102.50,-76.42618322
102.51,-76.42618456
102.52,-76.42618590
102.53,-76.42618723
102.54,-76.42618855
102.55,-76.42618987
102.56,-76.42619118
102.57,-76.42619249
102.58,-76.42619379
102.59,-76.42619509
102.60,-76.42619638
102.61,-76.42619768
102.62,-76.42619896
102.63,-76.42620024
102.64,-76.42620151
102.65,-76.42620278
102.66,-76.42620404
102.67,-76.42620530
102.68,-76.42620656
102.69,-76.42620780
102.70,-76.42620905
102.71,-76.42621029
102.72,-76.42621153
102.73,-76.42621275
102.74,-76.42621397
102.75,-76.42621520
102.76,-76.42621641
102.77,-76.42621761
102.78,-76.42621882
102.79,-76.42622002
102.80,-76.42622122
102.81,-76.42622241
102.82,-76.42622359
102.83,-76.42622477
102.84,-76.42622594
102.85,-76.42622711
102.86,-76.42622827
102.87,-76.42622944
102.88,-76.42623059
102.89,-76.42623174
102.90,-76.42623289
102.91,-76.42623403
102.92,-76.42623516
102.93,-76.42623629
102.94,-76.42623742
102.95,-76.42623853
102.96,-76.42623965
102.97,-76.42624076
102.98,-76.42624186
102.99,-76.42624296
103.00,-76.42624406
103.01,-76.42624515
103.02,-76.42624623
103.03,-76.42624731
103.04,-76.42624838
103.05,-76.42624946
103.06,-76.42625052
103.07,-76.42625158
103.08,-76.42625264
103.09,-76.42625369
103.10,-76.42625473
103.11,-76.42625577
103.12,-76.42625681
103.13,-76.42625784
103.14,-76.42625887
103.15,-76.42625989
103.16,-76.42626090
103.17,-76.42626191
103.18,-76.42626292
103.19,-76.42626392
103.20,-76.42626491
103.21,-76.42626591
103.22,-76.42626689
103.23,-76.42626787
103.24,-76.42626885
103.25,-76.42626982
103.26,-76.42627079
103.27,-76.42627175
103.28,-76.42627271
103.29,-76.42627366
103.30,-76.42627460
103.31,-76.42627555
103.32,-76.42627648
103.33,-76.42627741
103.34,-76.42627834
103.35,-76.42627926
103.36,-76.42628018
103.37,-76.42628109
103.38,-76.42628200
103.39,-76.42628290
103.40,-76.42628380
103.41,-76.42628469
103.42,-76.42628558
103.43,-76.42628646
103.44,-76.42628733
103.45,-76.42628821
103.46,-76.42628908
103.47,-76.42628994
103.48,-76.42629080
103.49,-76.42629165
103.50,-76.42629250
103.51,-76.42629334
103.52,-76.42629418
103.53,-76.42629502
103.54,-76.42629584
103.55,-76.42629667
103.56,-76.42629749
103.57,-76.42629830
103.58,-76.42629911
103.59,-76.42629991
103.60,-76.42630071
103.61,-76.42630150
103.62,-76.42630229
103.63,-76.42630308
103.64,-76.42630386
103.65,-76.42630463
103.66,-76.42630540
103.67,-76.42630617
103.68,-76.42630692
103.69,-76.42630768
103.70,-76.42630843
103.71,-76.42630917
103.72,-76.42630992
103.73,-76.42631065
103.74,-76.42631138
103.75,-76.42631210
103.76,-76.42631283
103.77,-76.42631354
103.78,-76.42631425
103.79,-76.42631496
103.80,-76.42631566
103.81,-76.42631636
103.82,-76.42631704
103.83,-76.42631773
103.84,-76.42631841
103.85,-76.42631909
103.86,-76.42631976
103.87,-76.42632043
103.88,-76.42632109
103.89,-76.42632175
103.90,-76.42632240
103.91,-76.42632305
103.92,-76.42632369
103.93,-76.42632433
103.94,-76.42632496
103.95,-76.42632559
103.96,-76.42632621
103.97,-76.42632683
103.98,-76.42632744
103.99,-76.42632805
104.00,-76.42632865
104.01,-76.42632925
104.02,-76.42632984
104.03,-76.42633043
104.04,-76.42633102
104.05,-76.42633159
104.06,-76.42633217
104.07,-76.42633274
104.08,-76.42633330
104.09,-76.42633386
104.10,-76.42633442
104.11,-76.42633496
104.12,-76.42633551
104.13,-76.42633605
104.14,-76.42633659
104.15,-76.42633711
104.16,-76.42633764
104.17,-76.42633816
104.18,-76.42633868
104.19,-76.42633919
104.20,-76.42633969
104.21,-76.42634020
104.22,-76.42634069
104.23,-76.42634118
104.24,-76.42634167
104.25,-76.42634215
104.26,-76.42634263
104.27,-76.42634310
104.28,-76.42634357
104.29,-76.42634403
104.30,-76.42634448
104.31,-76.42634494
104.32,-76.42634539
104.33,-76.42634583
104.34,-76.42634627
104.35,-76.42634670
104.36,-76.42634713
104.37,-76.42634755
104.38,-76.42634797
104.39,-76.42634838
104.40,-76.42634879
104.41,-76.42634920
104.42,-76.42634959
104.43,-76.42634999
104.44,-76.42635038
104.45,-76.42635076
104.46,-76.42635114
104.47,-76.42635152
104.48,-76.42635189
104.49,-76.42635225
104.50,-76.42635262
104.51,-76.42635297
104.52,-76.42635332
104.53,-76.42635367
104.54,-76.42635401
104.55,-76.42635435
104.56,-76.42635468
104.57,-76.42635500
104.58,-76.42635532
104.59,-76.42635564
104.60,-76.42635595
104.61,-76.42635626
104.62,-76.42635656
104.63,-76.42635686
104.64,-76.42635715
104.65,-76.42635744
104.66,-76.42635772
104.67,-76.42635800
104.68,-76.42635828
104.69,-76.42635855
104.70,-76.42635881
104.71,-76.42635907
104.72,-76.42635932
104.73,-76.42635957
104.74,-76.42635982
104.75,-76.42636006
104.76,-76.42636029
104.77,-76.42636052
104.78,-76.42636075
104.79,-76.42636097
104.80,-76.42636119
104.81,-76.42636140
104.82,-76.42636160
104.83,-76.42636180
104.84,-76.42636200
104.85,-76.42636219
104.86,-76.42636238
104.87,-76.42636256
104.88,-76.42636274
104.89,-76.42636291
104.90,-76.42636308
104.91,-76.42636324
104.92,-76.42636340
104.93,-76.42636355
104.94,-76.42636370
104.95,-76.42636385
104.96,-76.42636398
104.97,-76.42636412
104.98,-76.42636425
104.99,-76.42636437
105.00,-76.42636449
105.01,-76.42636461
105.02,-76.42636472
105.03,-76.42636482
105.04,-76.42636493
105.05,-76.42636502
105.06,-76.42636511
105.07,-76.42636520
105.08,-76.42636528
105.09,-76.42636536
105.10,-76.42636543
105.11,-76.42636550
105.12,-76.42636556
105.13,-76.42636562
105.14,-76.42636567
105.15,-76.42636572
105.16,-76.42636576
105.17,-76.42636580
105.18,-76.42636583
105.19,-76.42636586
105.20,-76.42636588
105.21,-76.42636590
105.22,-76.42636592
105.23,-76.42636593
105.24,-76.42636593
105.25,-76.42636593
105.26,-76.42636593
105.27,-76.42636592
105.28,-76.42636591
105.29,-76.42636589
105.30,-76.42636586
105.31,-76.42636584
105.32,-76.42636580
105.33,-76.42636576
105.34,-76.42636572
105.35,-76.42636567
105.36,-76.42636562
105.37,-76.42636556
105.38,-76.42636550
105.39,-76.42636544
105.40,-76.42636537
105.41,-76.42636529
105.42,-76.42636521
105.43,-76.42636512
105.44,-76.42636503
105.45,-76.42636494
105.46,-76.42636484
105.47,-76.42636473
105.48,-76.42636462
105.49,-76.42636451
105.50,-76.42636439
105.51,-76.42636427
105.52,-76.42636414
105.53,-76.42636401
105.54,-76.42636387
105.55,-76.42636373
105.56,-76.42636358
105.57,-76.42636343
105.58,-76.42636327
105.59,-76.42636311
105.60,-76.42636294
105.61,-76.42636277
105.62,-76.42636260
105.63,-76.42636242
105.64,-76.42636223
105.65,-76.42636204
105.66,-76.42636185
105.67,-76.42636165
105.68,-76.42636144
105.69,-76.42636123
105.70,-76.42636102
105.71,-76.42636080
105.72,-76.42636058
105.73,-76.42636035
105.74,-76.42636012
105.75,-76.42635988
105.76,-76.42635964
105.77,-76.42635939
105.78,-76.42635914
105.79,-76.42635888
105.80,-76.42635862
105.81,-76.42635836
105.82,-76.42635809
105.83,-76.42635781
105.84,-76.42635753
105.85,-76.42635725
105.86,-76.42635696
105.87,-76.42635666
105.88,-76.42635636
105.89,-76.42635606
105.90,-76.42635575
105.91,-76.42635544
105.92,-76.42635512
105.93,-76.42635480
105.94,-76.42635447
105.95,-76.42635414
105.96,-76.42635381
105.97,-76.42635347
105.98,-76.42635312
105.99,-76.42635277
106.00,-76.42635241
106.01,-76.42635206
106.02,-76.42635169
106.03,-76.42635132
106.04,-76.42635095
106.05,-76.42635057
106.06,-76.42635018
106.07,-76.42634980
106.08,-76.42634940
106.09,-76.42634901
106.10,-76.42634860
106.11,-76.42634820
106.12,-76.42634778
106.13,-76.42634737
106.14,-76.42634695
106.15,-76.42634652
106.16,-76.42634609
106.17,-76.42634566
106.18,-76.42634521
106.19,-76.42634477
106.20,-76.42634432
106.21,-76.42634387
106.22,-76.42634341
106.23,-76.42634294
106.24,-76.42634248
106.25,-76.42634200
106.26,-76.42634153
106.27,-76.42634105
106.28,-76.42634056
106.29,-76.42634007
106.30,-76.42633957
106.31,-76.42633907
106.32,-76.42633857
106.33,-76.42633805
106.34,-76.42633754
106.35,-76.42633702
106.36,-76.42633650
106.37,-76.42633597
106.38,-76.42633543
106.39,-76.42633490
106.40,-76.42633435
106.41,-76.42633380
106.42,-76.42633325
106.43,-76.42633270
106.44,-76.42633214
106.45,-76.42633157
106.46,-76.42633100
106.47,-76.42633042
106.48,-76.42632984
106.49,-76.42632926
106.50,-76.42632867
106.51,-76.42632807
106.52,-76.42632747
106.53,-76.42632687
106.54,-76.42632626
106.55,-76.42632565
106.56,-76.42632503
106.57,-76.42632441
106.58,-76.42632378
106.59,-76.42632315
106.60,-76.42632251
106.61,-76.42632187
106.62,-76.42632123
106.63,-76.42632058
106.64,-76.42631992
106.65,-76.42631927
106.66,-76.42631860
106.67,-76.42631793
106.68,-76.42631726
106.69,-76.42631658
106.70,-76.42631590
106.71,-76.42631521
106.72,-76.42631452
106.73,-76.42631382
106.74,-76.42631312
106.75,-76.42631241
106.76,-76.42631170
106.77,-76.42631099
106.78,-76.42631027
106.79,-76.42630955
106.80,-76.42630882
106.81,-76.42630808
106.82,-76.42630734
106.83,-76.42630660
106.84,-76.42630585
106.85,-76.42630510
106.86,-76.42630434
106.87,-76.42630358
106.88,-76.42630281
106.89,-76.42630204
106.90,-76.42630127
106.91,-76.42630049
106.92,-76.42629970
106.93,-76.42629891
106.94,-76.42629812
106.95,-76.42629732
106.96,-76.42629652
106.97,-76.42629571
106.98,-76.42629490
106.99,-76.42629408
107.00,-76.42629326
107.01,-76.42629244
107.02,-76.42629160
107.03,-76.42629077
107.04,-76.42628993
107.05,-76.42628908
107.06,-76.42628823
107.07,-76.42628738
107.08,-76.42628652
107.09,-76.42628565
107.10,-76.42628479
107.11,-76.42628391
107.12,-76.42628304
107.13,-76.42628215
107.14,-76.42628127
107.15,-76.42628038
107.16,-76.42627948
107.17,-76.42627858
107.18,-76.42627768
107.19,-76.42627677
107.20,-76.42627585
107.21,-76.42627494
107.22,-76.42627402
107.23,-76.42627309
107.24,-76.42627215
107.25,-76.42627121
107.26,-76.42627028
107.27,-76.42626933
107.28,-76.42626838
107.29,-76.42626742
107.30,-76.42626646
107.31,-76.42626550
107.32,-76.42626453
107.33,-76.42626355
107.34,-76.42626258
107.35,-76.42626159
107.36,-76.42626061
107.37,-76.42625961
107.38,-76.42625861
107.39,-76.42625762
107.40,-76.42625661
107.41,-76.42625560
107.42,-76.42625458
107.43,-76.42625356
107.44,-76.42625254
107.45,-76.42625151
107.46,-76.42625048
107.47,-76.42624944
107.48,-76.42624840
107.49,-76.42624735
107.50,-76.42624629
107.51,-76.42624524
107.52,-76.42624418
107.53,-76.42624312
107.54,-76.42624205
107.55,-76.42624097
107.56,-76.42623989
107.57,-76.42623881
107.58,-76.42623772
107.59,-76.42623663
107.60,-76.42623553
107.61,-76.42623443
107.62,-76.42623332
107.63,-76.42623221
107.64,-76.42623110
107.65,-76.42622998
107.66,-76.42622884
107.67,-76.42622772
107.68,-76.42622658
107.69,-76.42622544
107.70,-76.42622430
107.71,-76.42622315
107.72,-76.42622200
107.73,-76.42622085
107.74,-76.42621969
107.75,-76.42621852
107.76,-76.42621735
107.77,-76.42621617
107.78,-76.42621499
107.79,-76.42621381
107.80,-76.42621262
107.81,-76.42621143
107.82,-76.42621023
107.83,-76.42620902
107.84,-76.42620782
107.85,-76.42620661
107.86,-76.42620539
107.87,-76.42620417
107.88,-76.42620294
107.89,-76.42620171
107.90,-76.42620048
107.91,-76.42619924
107.92,-76.42619800
107.93,-76.42619675
107.94,-76.42619550
107.95,-76.42619425
107.96,-76.42619298
107.97,-76.42619171
107.98,-76.42619045
107.99,-76.42618917
108.00,-76.42618789
108.01,-76.42618661
108.02,-76.42618532
108.03,-76.42618402
108.04,-76.42618273
108.05,-76.42618143
108.06,-76.42618012
108.07,-76.42617881
108.08,-76.42617749
108.09,-76.42617617
108.10,-76.42617485
108.11,-76.42617352
108.12,-76.42617218
108.13,-76.42617084
108.14,-76.42616950
108.15,-76.42616815
108.16,-76.42616680
108.17,-76.42616545
108.18,-76.42616408
108.19,-76.42616272
108.20,-76.42616135
108.21,-76.42615997
108.22,-76.42615860
108.23,-76.42615721
108.24,-76.42615583
108.25,-76.42615443
108.26,-76.42615303
108.27,-76.42615163
108.28,-76.42615023
108.29,-76.42614882
108.30,-76.42614740
108.31,-76.42614598
108.32,-76.42614455
108.33,-76.42614313
108.34,-76.42614169
108.35,-76.42614025
108.36,-76.42613881
108.37,-76.42613737
108.38,-76.42613591
108.39,-76.42613446
108.40,-76.42613300
108.41,-76.42613154
108.42,-76.42613006
108.43,-76.42612859
108.44,-76.42612711
108.45,-76.42612563
108.46,-76.42612414
108.47,-76.42612265
108.48,-76.42612116
108.49,-76.42611966
108.50,-76.42611816
108.51,-76.42611664
108.52,-76.42611512
108.53,-76.42611361
108.54,-76.42611209
108.55,-76.42611056
108.56,-76.42610903
108.57,-76.42610749
108.58,-76.42610594
108.59,-76.42610440
108.60,-76.42610285
108.61,-76.42610129
108.62,-76.42609974
108.63,-76.42609817
108.64,-76.42609661
108.65,-76.42609503
108.66,-76.42609346
108.67,-76.42609187
108.68,-76.42609029
108.69,-76.42608870
108.70,-76.42608710
108.71,-76.42608550
108.72,-76.42608390
108.73,-76.42608229
108.74,-76.42608068
108.75,-76.42607906
108.76,-76.42607745
108.77,-76.42607582
108.78,-76.42607419
108.79,-76.42607255
108.80,-76.42607091
108.81,-76.42606927
108.82,-76.42606762
108.83,-76.42606596
108.84,-76.42606431
108.85,-76.42606265
108.86,-76.42606098
108.87,-76.42605931
108.88,-76.42605763
108.89,-76.42605596
108.90,-76.42605427
108.91,-76.42605258
108.92,-76.42605089
108.93,-76.42604920
108.94,-76.42604749
108.95,-76.42604578
108.96,-76.42604408
108.97,-76.42604236
108.98,-76.42604064
108.99,-76.42603892
109.00,-76.42603719
109.01,-76.42603545
